{
  "resourceType": "Bundle",
  "type": "collection",
  "timestamp": "2021-02-05T12:05:23.678+01:00",
  "entry": [
    {
      "fullUrl": "http://iehrexampleurl/fhir/ResearchStudy/exampleResearchStudy",
      "resource": {
        "resourceType": "ResearchStudy",
        "id": "exampleResearchStudy",
        "meta": {
          "profile": [
            "http://interopehrate.eu/fhir/StructureDefinition/ResearchStudy-ResearchStudy-IEHR"
          ]
        },
        "text": {
          "status": "extensions",
          "div": "<div xmlns=\"http://www.w3.org/1999/xhtml\">To Prevent Error</div>"
        },
        "extension": [
          {
            "url": "http://interopehrate.eu/fhir/StructureDefinition/EnrollmentPeriod-IEHR",
            "valuePeriod": {
              "start": "2020-01-01",
              "end": "2020-07-01"
            }
          },
          {
            "url": "http://interopehrate.eu/fhir/StructureDefinition/AnonymizationExtension-IEHR",
            "valueCoding": {
              "system": "http://interopehrate.eu/fhir/CodeSystem/AnonymizationType-IEHR",
              "code": "pseudonymization",
              "display": "Pseudonymization"
            }
          },
          {
            "extension": [
              {
                "url": "DataRequirement",
                "valueDataRequirement": {
                  "extension": [
                    {
                      "url": "http://interopehrate.eu/fhir/StructureDefinition/FrequencyExtension-IEHR",
                      "valueTiming": {
                        "repeat": {
                          "frequency": 1,
                          "period": 1,
                          "periodUnit": "d"
                        }
                      }
                    }
                  ],
                  "type": "Observation",
                  "codeFilter": [
                    {
                      "path": "code",
                      "code": [
                        {
                          "system": "http://loinc.org",
                          "code": "8867-4",
                          "display": "Heart rate"
                        }
                      ]
                    }
                  ],
                  "dateFilter": [
                    {
                      "path": "effectivePeriod",
                      "valuePeriod": {
                        "start": "2021-02-05T12:05:23+01:00",
                        "end": "2023-02-05T12:05:23+01:00"
                      }
                    }
                  ]
                }
              },
              {
                "url": "DataRequirement",
                "valueDataRequirement": {
                  "type": "Observation",
                  "codeFilter": [
                    {
                      "path": "code",
                      "code": [
                        {
                          "system": "http://loinc.org",
                          "code": "8867-4",
                          "display": "Heart rate"
                        }
                      ]
                    }
                  ],
                  "dateFilter": [
                    {
                      "path": "effectivePeriod",
                      "valuePeriod": {
                        "start": "2016-02-05T12:05:23+01:00",
                        "end": "2021-02-05T12:05:23+01:00"
                      }
                    }
                  ]
                }
              },
              {
                "url": "DataRequirement",
                "valueDataRequirement": {
                  "extension": [
                    {
                      "url": "http://interopehrate.eu/fhir/StructureDefinition/FrequencyExtension-IEHR",
                      "valueTiming": {
                        "repeat": {
                          "frequency": 1,
                          "period": 3,
                          "periodUnit": "mo"
                        }
                      }
                    }
                  ],
                  "type": "Observation",
                  "codeFilter": [
                    {
                      "path": "code",
                      "code": [
                        {
                          "system": "http://loinc.org",
                          "code": "88020-3",
                          "display": "Functional capacity NYHA"
                        }
                      ]
                    }
                  ],
                  "dateFilter": [
                    {
                      "path": "effectivePeriod",
                      "valuePeriod": {
                        "start": "2021-02-05T12:05:23+01:00",
                        "end": "2023-02-05T12:05:23+01:00"
                      }
                    }
                  ]
                }
              },
              {
                "url": "DataRequirement",
                "valueDataRequirement": {
                  "type": "Observation",
                  "codeFilter": [
                    {
                      "path": "code",
                      "code": [
                        {
                          "system": "http://loinc.org",
                          "code": "88020-3",
                          "display": "Functional capacity NYHA"
                        }
                      ]
                    }
                  ],
                  "dateFilter": [
                    {
                      "path": "effectivePeriod",
                      "valuePeriod": {
                        "start": "2016-02-05T12:05:23+01:00",
                        "end": "2021-02-05T12:05:23+01:00"
                      }
                    }
                  ]
                }
              },
              {
                "url": "DataRequirement",
                "valueDataRequirement": {
                  "extension": [
                    {
                      "url": "http://interopehrate.eu/fhir/StructureDefinition/FrequencyExtension-IEHR",
                      "valueTiming": {
                        "repeat": {
                          "frequency": 1,
                          "period": 1,
                          "periodUnit": "d"
                        }
                      }
                    }
                  ],
                  "type": "Observation",
                  "codeFilter": [
                    {
                      "path": "code",
                      "code": [
                        {
                          "system": "http://loinc.org",
                          "code": "8480-6",
                          "display": "Systolic blood pressure"
                        }
                      ]
                    }
                  ],
                  "dateFilter": [
                    {
                      "path": "effectivePeriod",
                      "valuePeriod": {
                        "start": "2021-02-05T12:05:23+01:00",
                        "end": "2023-02-05T12:05:23+01:00"
                      }
                    }
                  ]
                }
              },
              {
                "url": "DataRequirement",
                "valueDataRequirement": {
                  "extension": [
                    {
                      "url": "http://interopehrate.eu/fhir/StructureDefinition/FrequencyExtension-IEHR",
                      "valueTiming": {
                        "repeat": {
                          "frequency": 1,
                          "period": 1,
                          "periodUnit": "d"
                        }
                      }
                    }
                  ],
                  "type": "Observation",
                  "codeFilter": [
                    {
                      "path": "code",
                      "code": [
                        {
                          "system": "http://loinc.org",
                          "code": "8462-4",
                          "display": "Diastolic blood pressure"
                        }
                      ]
                    }
                  ],
                  "dateFilter": [
                    {
                      "path": "effectivePeriod",
                      "valuePeriod": {
                        "start": "2021-02-05T12:05:23+01:00",
                        "end": "2023-02-05T12:05:23+01:00"
                      }
                    }
                  ]
                }
              },
              {
                "url": "DataRequirement",
                "valueDataRequirement": {
                  "type": "Observation",
                  "codeFilter": [
                    {
                      "path": "code",
                      "code": [
                        {
                          "system": "http://loinc.org",
                          "code": "8480-6",
                          "display": "Systolic blood pressure"
                        }
                      ]
                    }
                  ],
                  "dateFilter": [
                    {
                      "path": "effectivePeriod",
                      "valuePeriod": {
                        "start": "2016-02-05T12:05:23+01:00",
                        "end": "2021-02-05T12:05:23+01:00"
                      }
                    }
                  ]
                }
              },
              {
                "url": "DataRequirement",
                "valueDataRequirement": {
                  "type": "Observation",
                  "codeFilter": [
                    {
                      "path": "code",
                      "code": [
                        {
                          "system": "http://loinc.org",
                          "code": "8462-4",
                          "display": "Diastolic blood pressure"
                        }
                      ]
                    }
                  ],
                  "dateFilter": [
                    {
                      "path": "effectivePeriod",
                      "valuePeriod": {
                        "start": "2016-02-05T12:05:23+01:00",
                        "end": "2021-02-05T12:05:23+01:00"
                      }
                    }
                  ]
                }
              },
              {
                "url": "DataRequirement",
                "valueDataRequirement": {
                  "extension": [
                    {
                      "url": "http://interopehrate.eu/fhir/StructureDefinition/FrequencyExtension-IEHR",
                      "valueTiming": {
                        "repeat": {
                          "frequency": 1,
                          "period": 1,
                          "periodUnit": "d"
                        }
                      }
                    }
                  ],
                  "type": "Observation",
                  "codeFilter": [
                    {
                      "path": "code",
                      "code": [
                        {
                          "system": "http://loinc.org",
                          "code": "2708-6",
                          "display": "Oxygen saturation in Arterial blood"
                        }
                      ]
                    }
                  ],
                  "dateFilter": [
                    {
                      "path": "effectivePeriod",
                      "valuePeriod": {
                        "start": "2021-02-05T12:05:23+01:00",
                        "end": "2023-02-05T12:05:23+01:00"
                      }
                    }
                  ]
                }
              },
              {
                "url": "DataRequirement",
                "valueDataRequirement": {
                  "type": "Observation",
                  "codeFilter": [
                    {
                      "path": "code",
                      "code": [
                        {
                          "system": "http://loinc.org",
                          "code": "2708-6",
                          "display": "Oxygen saturation in Arterial blood"
                        }
                      ]
                    }
                  ],
                  "dateFilter": [
                    {
                      "path": "effectivePeriod",
                      "valuePeriod": {
                        "start": "2021-02-05T12:05:23+01:00",
                        "end": "2023-02-05T12:05:23+01:00"
                      }
                    }
                  ]
                }
              },
              {
                "url": "DataRequirement",
                "valueDataRequirement": {
                  "extension": [
                    {
                      "url": "http://interopehrate.eu/fhir/StructureDefinition/FrequencyExtension-IEHR",
                      "valueTiming": {
                        "repeat": {
                          "frequency": 1,
                          "period": 1,
                          "periodUnit": "d"
                        }
                      }
                    }
                  ],
                  "type": "Observation",
                  "codeFilter": [
                    {
                      "path": "code",
                      "code": [
                        {
                          "system": "http://loinc.org",
                          "code": "29463-7",
                          "display": "Body weight"
                        }
                      ]
                    }
                  ],
                  "dateFilter": [
                    {
                      "path": "effectivePeriod",
                      "valuePeriod": {
                        "start": "2021-02-05T12:05:23+01:00",
                        "end": "2023-02-05T12:05:23+01:00"
                      }
                    }
                  ]
                }
              },
              {
                "url": "DataRequirement",
                "valueDataRequirement": {
                  "type": "Observation",
                  "codeFilter": [
                    {
                      "path": "code",
                      "code": [
                        {
                          "system": "http://loinc.org",
                          "code": "29463-7",
                          "display": "Body weight"
                        }
                      ]
                    }
                  ],
                  "dateFilter": [
                    {
                      "path": "effectivePeriod",
                      "valuePeriod": {
                        "start": "2016-02-05T12:05:23+01:00",
                        "end": "2021-02-05T12:05:23+01:00"
                      }
                    }
                  ]
                }
              },
              {
                "url": "DataRequirement",
                "valueDataRequirement": {
                  "type": "Medication",
                  "dateFilter": [
                    {
                      "path": "effectivePeriod",
                      "valuePeriod": {
                        "start": "2021-02-05T12:05:23+01:00",
                        "end": "2023-02-05T12:05:23+01:00"
                      }
                    }
                  ]
                }
              },
              {
                "url": "DataRequirement",
                "valueDataRequirement": {
                  "type": "Medication",
                  "dateFilter": [
                    {
                      "path": "effectivePeriod",
                      "valuePeriod": {
                        "start": "2016-02-05T12:05:23+01:00",
                        "end": "2021-02-05T12:05:23+01:00"
                      }
                    }
                  ]
                }
              },
              {
                "url": "DataRequirement",
                "valueDataRequirement": {
                  "extension": [
                    {
                      "url": "http://interopehrate.eu/fhir/StructureDefinition/FrequencyExtension-IEHR",
                      "valueTiming": {
                        "repeat": {
                          "frequency": 1,
                          "period": 6,
                          "periodUnit": "mo"
                        }
                      }
                    }
                  ],
                  "type": "Observation",
                  "codeFilter": [
                    {
                      "path": "code",
                      "code": [
                        {
                          "system": "http://loinc.org",
                          "code": "10230-1",
                          "display": "Left ventricular Ejection fraction"
                        }
                      ]
                    }
                  ],
                  "dateFilter": [
                    {
                      "path": "effectivePeriod",
                      "valuePeriod": {
                        "start": "2021-02-05T12:05:23+01:00",
                        "end": "2023-02-05T12:05:23+01:00"
                      }
                    }
                  ]
                }
              },
              {
                "url": "DataRequirement",
                "valueDataRequirement": {
                  "extension": [
                    {
                      "url": "http://interopehrate.eu/fhir/StructureDefinition/FrequencyExtension-IEHR",
                      "valueTiming": {
                        "repeat": {
                          "frequency": 1,
                          "period": 6,
                          "periodUnit": "mo"
                        }
                      }
                    }
                  ],
                  "type": "Observation",
                  "codeFilter": [
                    {
                      "path": "code",
                      "code": [
                        {
                          "system": "http://loinc.org",
                          "code": "10231-9",
                          "display": "Right ventricular Ejection fraction"
                        }
                      ]
                    }
                  ],
                  "dateFilter": [
                    {
                      "path": "effectivePeriod",
                      "valuePeriod": {
                        "start": "2021-02-05T12:05:23+01:00",
                        "end": "2023-02-05T12:05:23+01:00"
                      }
                    }
                  ]
                }
              },
              {
                "url": "DataRequirement",
                "valueDataRequirement": {
                  "type": "Observation",
                  "codeFilter": [
                    {
                      "path": "code",
                      "code": [
                        {
                          "system": "http://loinc.org",
                          "code": "10230-1",
                          "display": "Left ventricular Ejection fraction"
                        }
                      ]
                    }
                  ],
                  "dateFilter": [
                    {
                      "path": "effectivePeriod",
                      "valuePeriod": {
                        "start": "2016-02-05T12:05:23+01:00",
                        "end": "2021-02-05T12:05:23+01:00"
                      }
                    }
                  ]
                }
              },
              {
                "url": "DataRequirement",
                "valueDataRequirement": {
                  "type": "Observation",
                  "codeFilter": [
                    {
                      "path": "code",
                      "code": [
                        {
                          "system": "http://loinc.org",
                          "code": "10231-9",
                          "display": "Right ventricular Ejection fraction"
                        }
                      ]
                    }
                  ],
                  "dateFilter": [
                    {
                      "path": "effectivePeriod",
                      "valuePeriod": {
                        "start": "2016-02-05T12:05:23+01:00",
                        "end": "2021-02-05T12:05:23+01:00"
                      }
                    }
                  ]
                }
              },
              {
                "url": "DataRequirement",
                "valueDataRequirement": {
                  "extension": [
                    {
                      "url": "http://interopehrate.eu/fhir/StructureDefinition/FrequencyExtension-IEHR",
                      "valueTiming": {
                        "repeat": {
                          "frequency": 1,
                          "period": 12,
                          "periodUnit": "mo"
                        }
                      }
                    }
                  ],
                  "type": "Observation",
                  "codeFilter": [
                    {
                      "path": "code",
                      "code": [
                        {
                          "system": "http://loinc.org",
                          "code": "20150-9",
                          "display": "FEV1"
                        }
                      ]
                    }
                  ],
                  "dateFilter": [
                    {
                      "path": "effectivePeriod",
                      "valuePeriod": {
                        "start": "2021-02-05T12:05:23+01:00",
                        "end": "2023-02-05T12:05:23+01:00"
                      }
                    }
                  ]
                }
              },
              {
                "url": "DataRequirement",
                "valueDataRequirement": {
                  "type": "Observation",
                  "codeFilter": [
                    {
                      "path": "code",
                      "code": [
                        {
                          "system": "http://loinc.org",
                          "code": "20150-9",
                          "display": "FEV1"
                        }
                      ]
                    }
                  ],
                  "dateFilter": [
                    {
                      "path": "effectivePeriod",
                      "valuePeriod": {
                        "start": "2016-02-05T12:05:23+01:00",
                        "end": "2021-02-05T12:05:23+01:00"
                      }
                    }
                  ]
                }
              },
              {
                "url": "DataRequirement",
                "valueDataRequirement": {
                  "extension": [
                    {
                      "url": "http://interopehrate.eu/fhir/StructureDefinition/FrequencyExtension-IEHR",
                      "valueTiming": {
                        "repeat": {
                          "frequency": 1,
                          "period": 6,
                          "periodUnit": "mo"
                        }
                      }
                    }
                  ],
                  "type": "Observation",
                  "codeFilter": [
                    {
                      "path": "code",
                      "code": [
                        {
                          "system": "http://loinc.org",
                          "code": "718-7",
                          "display": "Hemoglobin [Mass/volume] in Blood"
                        }
                      ]
                    }
                  ],
                  "dateFilter": [
                    {
                      "path": "effectivePeriod",
                      "valuePeriod": {
                        "start": "2021-02-05T12:05:23+01:00",
                        "end": "2023-02-05T12:05:23+01:00"
                      }
                    }
                  ]
                }
              },
              {
                "url": "DataRequirement",
                "valueDataRequirement": {
                  "type": "Observation",
                  "codeFilter": [
                    {
                      "path": "code",
                      "code": [
                        {
                          "system": "http://loinc.org",
                          "code": "718-7",
                          "display": "Hemoglobin [Mass/volume] in Blood"
                        }
                      ]
                    }
                  ],
                  "dateFilter": [
                    {
                      "path": "effectivePeriod",
                      "valuePeriod": {
                        "start": "2016-02-05T12:05:23+01:00",
                        "end": "2021-02-05T12:05:23+01:00"
                      }
                    }
                  ]
                }
              },
              {
                "url": "DataRequirement",
                "valueDataRequirement": {
                  "extension": [
                    {
                      "url": "http://interopehrate.eu/fhir/StructureDefinition/FrequencyExtension-IEHR",
                      "valueTiming": {
                        "repeat": {
                          "frequency": 1,
                          "period": 6,
                          "periodUnit": "mo"
                        }
                      }
                    }
                  ],
                  "type": "Observation",
                  "codeFilter": [
                    {
                      "path": "code",
                      "code": [
                        {
                          "system": "http://loinc.org",
                          "code": "42637-9",
                          "display": "Natriuretic peptide B [Mass/volume] in Blood"
                        }
                      ]
                    }
                  ],
                  "dateFilter": [
                    {
                      "path": "effectivePeriod",
                      "valuePeriod": {
                        "start": "2021-02-05T12:05:23+01:00",
                        "end": "2023-02-05T12:05:23+01:00"
                      }
                    }
                  ]
                }
              },
              {
                "url": "DataRequirement",
                "valueDataRequirement": {
                  "type": "Observation",
                  "codeFilter": [
                    {
                      "path": "code",
                      "code": [
                        {
                          "system": "http://loinc.org",
                          "code": "42637-9",
                          "display": "Natriuretic peptide B [Mass/volume] in Blood"
                        }
                      ]
                    }
                  ],
                  "dateFilter": [
                    {
                      "path": "effectivePeriod",
                      "valuePeriod": {
                        "start": "2016-02-05T12:05:23+01:00",
                        "end": "2021-02-05T12:05:23+01:00"
                      }
                    }
                  ]
                }
              },
              {
                "url": "DataRequirement",
                "valueDataRequirement": {
                  "extension": [
                    {
                      "url": "http://interopehrate.eu/fhir/StructureDefinition/FrequencyExtension-IEHR",
                      "valueTiming": {
                        "repeat": {
                          "frequency": 1,
                          "period": 6,
                          "periodUnit": "mo"
                        }
                      }
                    }
                  ],
                  "type": "Observation",
                  "codeFilter": [
                    {
                      "path": "code",
                      "code": [
                        {
                          "system": "http://loinc.org",
                          "code": "71425-3",
                          "display": "Natriuretic peptide.B prohormone N-Terminal [Mass/volume] in Blood by Immunoassay"
                        }
                      ]
                    }
                  ],
                  "dateFilter": [
                    {
                      "path": "effectivePeriod",
                      "valuePeriod": {
                        "start": "2021-02-05T12:05:23+01:00",
                        "end": "2023-02-05T12:05:23+01:00"
                      }
                    }
                  ]
                }
              },
              {
                "url": "DataRequirement",
                "valueDataRequirement": {
                  "type": "Observation",
                  "codeFilter": [
                    {
                      "path": "code",
                      "code": [
                        {
                          "system": "http://loinc.org",
                          "code": "71425-3",
                          "display": "Natriuretic peptide.B prohormone N-Terminal [Mass/volume] in Blood by Immunoassay"
                        }
                      ]
                    }
                  ],
                  "dateFilter": [
                    {
                      "path": "effectivePeriod",
                      "valuePeriod": {
                        "start": "2016-02-05T12:05:23+01:00",
                        "end": "2021-02-05T12:05:23+01:00"
                      }
                    }
                  ]
                }
              },
              {
                "url": "DataRequirement",
                "valueDataRequirement": {
                  "extension": [
                    {
                      "url": "http://interopehrate.eu/fhir/StructureDefinition/FrequencyExtension-IEHR",
                      "valueTiming": {
                        "repeat": {
                          "frequency": 1,
                          "period": 6,
                          "periodUnit": "mo"
                        }
                      }
                    }
                  ],
                  "type": "Observation",
                  "codeFilter": [
                    {
                      "path": "category",
                      "code": [
                        {
                          "system": "http://loinc.org",
                          "code": "71941-9",
                          "display": "Kansas City Cardiomyopathy Questionnaire [KCCQ]"
                        }
                      ]
                    }
                  ],
                  "dateFilter": [
                    {
                      "path": "effectivePeriod",
                      "valuePeriod": {
                        "start": "2021-02-05T12:05:23+01:00",
                        "end": "2023-02-05T12:05:23+01:00"
                      }
                    }
                  ]
                }
              }
            ],
            "url": "http://interopehrate.eu/fhir/StructureDefinition/DataSetDefinition"
          }
        ],
        "identifier": [
          {
            "system": "urn:oid:1.11.111.1.1.11.111.11",
            "value": "ResearchStudy/exampleResearchStudy"
          }
        ],
        "title": "ResearchStudyIEHR Example NOT-VALID",
        "primaryPurposeType": {
          "coding": [
            {
              "system": "http://terminology.hl7.org/CodeSystem/research-study-prim-purp-type",
              "code": "diagnostic",
              "display": "Diagnostic"
            }
          ]
        },
        "contact": [
          {
            "name": "Mr Alberto Milano",
            "telecom": [
              {
                "system": "phone",
                "value": "11111111"
              }
            ]
          }
        ],
        "location": [
          {
            "coding": [
              {
                "system": "urn:iso:std:iso:3166",
                "code": "IT",
                "display": "Italy"
              }
            ]
          }
        ],
        "description": "This ResearchStudy was created to contain all requirements specified in the 'FTGM - iEHR Examples of clinical research protocol' Document ",
        "enrollment": [
          {
            "reference": "Group/exampleCohort"
          }
        ],
        "period": {
          "start": "2020-07-09",
          "end": "2025-09-14"
        },
        "site": [
          {
            "reference": "Location/exampleLocation"
          }
        ]
      }
    },
    {
      "fullUrl": "http://iehrexampleurl/fhir/Group/exampleCohort",
      "resource": {
        "resourceType": "Group",
        "id": "exampleCohort",
        "meta": {
          "profile": [
            "http://interopehrate.eu/fhir/StructureDefinition/Group-Cohort-IEHR"
          ]
        },
        "text": {
          "status": "generated",
          "div": "<div xmlns=\"http://www.w3.org/1999/xhtml\"><p><b>Generated Narrative</b></p><p><b>type</b>: person</p><p><b>actual</b>: false</p><blockquote><p><b>characteristic</b></p><p><b>code</b>: <span title=\"Codes: {http://interopehrate.eu/fhir/CodeSystem/GroupCharacteristic-Code gender}\">Gender</span></p><p><b>value</b>: <span title=\"Codes: {http://hl7.org/fhir/administrative-gender female}\">Female</span></p><p><b>exclude</b>: false</p></blockquote><blockquote><p><b>characteristic</b></p><p><b>code</b>: <span title=\"Codes: {http://interopehrate.eu/fhir/CodeSystem/GroupCharacteristic-Code age}\">Age</span></p><p><b>value</b>: 60-? years</p><p><b>exclude</b>: false</p></blockquote><blockquote><p><b>characteristic</b></p><p><b>code</b>: <span title=\"Codes: {http://interopehrate.eu/fhir/CodeSystem/GroupCharacteristic-Code condition}\">Condition</span></p><p><b>value</b>: <span title=\"Codes: {http://snomed.info/sct 42343007}\">Congestive heart failure (disorder)</span></p><p><b>exclude</b>: false</p></blockquote><blockquote><p><b>characteristic</b></p><p><b>code</b>: <span title=\"Codes: {http://interopehrate.eu/fhir/CodeSystem/GroupCharacteristic-Code condition}\">Condition</span></p><p><b>value</b>: <span title=\"Codes: {http://hl7.org/fhir/sid/icd-10-cm I10}\">Essential (primary) hypertension</span></p><p><b>exclude</b>: false</p></blockquote><blockquote><p><b>characteristic</b></p><p><b>code</b>: <span title=\"Codes: {http://interopehrate.eu/fhir/CodeSystem/GroupCharacteristic-Code expected lifespan}\">Expected lifespan</span></p><p><b>value</b>: 5-? years</p><p><b>exclude</b>: false</p></blockquote><blockquote><p><b>characteristic</b></p><p><b>code</b>: <span title=\"Codes: {http://interopehrate.eu/fhir/CodeSystem/GroupCharacteristic-Code medication}\">Medication</span></p><p><b>value</b>: <span title=\"Codes: {http://snomed.info/sct 41549009}\">Angiotensin-converting enzyme inhibitor-containing product</span></p><p><b>exclude</b>: false</p></blockquote><blockquote><p><b>characteristic</b></p><p><b>code</b>: <span title=\"Codes: {http://interopehrate.eu/fhir/CodeSystem/GroupCharacteristic-Code consent}\">Consent</span></p><p><b>value</b>: true</p><p><b>exclude</b>: false</p></blockquote><blockquote><p><b>characteristic</b></p><p><b>code</b>: <span title=\"Codes: {http://interopehrate.eu/fhir/CodeSystem/GroupCharacteristic-Code test}\">Test</span></p><p><b>value</b>: true</p><p><b>exclude</b>: false</p></blockquote><blockquote><p><b>characteristic</b></p><p><b>code</b>: <span title=\"Codes: {http://interopehrate.eu/fhir/CodeSystem/GroupCharacteristic-Code procedure}\">Procedure</span></p><p><b>value</b>: <span title=\"Codes: {http://snomed.info/sct 32413006}\">Transplantation of heart (procedure)</span></p><p><b>exclude</b>: true</p></blockquote><blockquote><p><b>characteristic</b></p><p><b>code</b>: <span title=\"Codes: {http://interopehrate.eu/fhir/CodeSystem/GroupCharacteristic-Code observation}\">Observation</span></p><p><b>value</b>: <span title=\"Codes: {http://snomed.info/sct 419620001}\">Death (event)</span></p><p><b>exclude</b>: true</p></blockquote></div>"
        },
        "type": "person",
        "actual": false,
        "characteristic": [
          {
            "code": {
              "coding": [
                {
                  "system": "http://interopehrate.eu/fhir/CodeSystem/GroupCharacteristic-Code",
                  "code": "gender",
                  "display": "Gender"
                }
              ]
            },
            "valueCodeableConcept": {
              "coding": [
                {
                  "system": "http://hl7.org/fhir/administrative-gender",
                  "code": "female",
                  "display": "Female"
                }
              ]
            },
            "exclude": false
          },
          {
            "code": {
              "coding": [
                {
                  "system": "http://interopehrate.eu/fhir/CodeSystem/GroupCharacteristic-Code",
                  "code": "age",
                  "display": "Age"
                }
              ]
            },
            "valueRange": {
              "low": {
                "value": 60,
                "unit": "years",
                "system": "http://unitsofmeasure.org",
                "code": "a"
              }
            },
            "exclude": false
          },
          {
            "code": {
              "coding": [
                {
                  "system": "http://interopehrate.eu/fhir/CodeSystem/GroupCharacteristic-Code",
                  "code": "condition",
                  "display": "Condition"
                }
              ]
            },
            "valueCodeableConcept": {
              "coding": [
                {
                  "system": "http://snomed.info/sct",
                  "code": "42343007",
                  "display": "Congestive heart failure (disorder)"
                }
              ]
            },
            "exclude": false
          },
          {
            "code": {
              "coding": [
                {
                  "system": "http://interopehrate.eu/fhir/CodeSystem/GroupCharacteristic-Code",
                  "code": "condition",
                  "display": "Condition"
                }
              ]
            },
            "valueCodeableConcept": {
              "coding": [
                {
                  "system": "http://hl7.org/fhir/sid/icd-10-cm",
                  "code": "I10",
                  "display": "Essential (primary) hypertension"
                }
              ]
            },
            "exclude": false
          },
          {
            "code": {
              "coding": [
                {
                  "system": "http://interopehrate.eu/fhir/CodeSystem/GroupCharacteristic-Code",
                  "code": "expected lifespan",
                  "display": "Expected lifespan"
                }
              ]
            },
            "valueRange": {
              "low": {
                "value": 5,
                "unit": "years",
                "system": "http://unitsofmeasure.org",
                "code": "a"
              }
            },
            "exclude": false
          },
          {
            "code": {
              "coding": [
                {
                  "system": "http://interopehrate.eu/fhir/CodeSystem/GroupCharacteristic-Code",
                  "code": "medication",
                  "display": "Medication"
                }
              ]
            },
            "valueCodeableConcept": {
              "coding": [
                {
                  "system": "http://snomed.info/sct",
                  "code": "41549009",
                  "display": "Angiotensin-converting enzyme inhibitor-containing product"
                }
              ]
            },
            "exclude": false
          },
          {
            "code": {
              "coding": [
                {
                  "system": "http://interopehrate.eu/fhir/CodeSystem/GroupCharacteristic-Code",
                  "code": "consent",
                  "display": "Consent"
                }
              ]
            },
            "valueBoolean": true,
            "exclude": false
          },
          {
            "code": {
              "coding": [
                {
                  "system": "http://interopehrate.eu/fhir/CodeSystem/GroupCharacteristic-Code",
                  "code": "test",
                  "display": "Test"
                }
              ]
            },
            "valueBoolean": true,
            "exclude": false
          },
          {
            "code": {
              "coding": [
                {
                  "system": "http://interopehrate.eu/fhir/CodeSystem/GroupCharacteristic-Code",
                  "code": "procedure",
                  "display": "Procedure"
                }
              ]
            },
            "valueCodeableConcept": {
              "coding": [
                {
                  "system": "http://snomed.info/sct",
                  "code": "32413006",
                  "display": "Transplantation of heart (procedure)"
                }
              ]
            },
            "exclude": true
          },
          {
            "code": {
              "coding": [
                {
                  "system": "http://interopehrate.eu/fhir/CodeSystem/GroupCharacteristic-Code",
                  "code": "observation",
                  "display": "Observation"
                }
              ]
            },
            "valueCodeableConcept": {
              "coding": [
                {
                  "system": "http://snomed.info/sct",
                  "code": "419620001",
                  "display": "Death (event)"
                }
              ]
            },
            "exclude": true
          }
        ]
      }
    },
    {
      "fullUrl": "http://iehrexampleurl/fhir/Location/exampleLocation",
      "resource": {
        "resourceType": "Location",
        "id": "exampleLocation",
        "meta": {
          "profile": [
            "http://interopehrate.eu/fhir/StructureDefinition/Location-ReferenceResearchCenter-IEHR"
          ]
        },
        "text": {
          "status": "generated",
          "div": "<div xmlns=\"http://www.w3.org/1999/xhtml\"><p><b>Generated Narrative</b></p><p><b>identifier</b>: id: exampleLocation</p><p><b>name</b>: Cardiovascular practice Milano</p><p><b>type</b>: <span title=\"Codes: {http://terminology.hl7.org/CodeSystem/v3-RoleCode CVDX}\">Cardiovascular diagnostics or therapeutics unit</span></p><p><b>telecom</b>: ph: 11111111</p><p><b>address</b>: Viale Certosa, 27111111 Milano 20019 Italy </p><p><b>endpoint</b>: <a href=\"#Endpoint_exampleEndpoint\">See above (Endpoint/exampleEndpoint)</a></p></div>"
        },
        "identifier": [
          {
            "system": "urn:oid:1.11.111.1.1.11.111.11",
            "value": "exampleLocation"
          }
        ],
        "name": "Cardiovascular practice Milano",
        "type": [
          {
            "coding": [
              {
                "system": "http://terminology.hl7.org/CodeSystem/v3-RoleCode",
                "code": "CVDX",
                "display": "Cardiovascular diagnostics or therapeutics unit"
              }
            ]
          }
        ],
        "telecom": [
          {
            "system": "phone",
            "value": "11111111"
          }
        ],
        "address": {
          "type": "postal",
          "line": [
            "Viale Certosa, 27111111"
          ],
          "city": "Milano",
          "postalCode": "20019",
          "country": "Italy"
        },
        "endpoint": [
          {
            "reference": "Endpoint/exampleEndpoint"
          }
        ]
      }
    },
    {
      "fullUrl": "http://iehrexampleurl/fhir/Endpoint/exampleEndpoint",
      "resource": {
        "resourceType": "Endpoint",
        "id": "exampleEndpoint",
        "text": {
          "status": "generated",
          "div": "<div xmlns=\"http://www.w3.org/1999/xhtml\"><p><b>Generated Narrative</b></p><p><b>status</b>: off</p><p><b>connectionType</b>: <span title=\"{http://terminology.hl7.org/CodeSystem/endpoint-connection-type hl7-fhir-rest}\">HL7 FHIR</span></p><p><b>payloadType</b>: <span title=\"Codes: {http://terminology.hl7.org/CodeSystem/endpoint-payload-type any}\">Any</span></p><p><b>address</b>: <a href=\"https://placeholder.com/\">https://placeholder.com/</a></p></div>"
        },
        "status": "off",
        "connectionType": {
          "system": "http://terminology.hl7.org/CodeSystem/endpoint-connection-type",
          "code": "hl7-fhir-rest",
          "display": "HL7 FHIR"
        },
        "payloadType": [
          {
            "coding": [
              {
                "system": "http://terminology.hl7.org/CodeSystem/endpoint-payload-type",
                "code": "any",
                "display": "Any"
              }
            ]
          }
        ],
        "address": "https://placeholder.com/"
      }
    }
  ]
}