{
  "resourceType": "Bundle",
  "id": "3611",
  "language": "en",
  "type": "collection",
  "timestamp": "2022-05-10T10:28:31.850+02:00",
  "entry": [ {
    "fullUrl": "http://interopEHRate.eu/fhir-resource/ResearchStudy/578354",
    "resource": {
      "resourceType": "ResearchStudy",
      "id": "578354",
      "meta": {
        "profile": [ "http://interopehrate.eu/fhir/StructureDefinition/ResearchStudy-IEHR" ]
      },
      "language": "en",
      "text": {
        "status": "extensions",
        "div": "<div xmlns=\"http://www.w3.org/1999/xhtml\">To Prevent Error</div>"
      },
      "extension": [ {
        "url": "http://interopehrate.eu/fhir/StructureDefinition/EnrollmentPeriodExtension-IEHR",
        "valuePeriod": {
          "start": "2020-01-01",
          "end": "2020-07-01"
        }
      }, {
        "url": "http://interopehrate.eu/fhir/StructureDefinition/AnonymizationExtension-IEHR",
        "valueCoding": {
          "system": "http://interopehrate.eu/fhir/CodeSystem/AnonymizationType-IEHR",
          "code": "pseudonymization",
          "display": "Pseudonymization"
        }
      }, {
        "url": "http://interopehrate.eu/fhir/StructureDefinition/QuestionnaireExtension-IEHR",
        "extension": [ {
          "url": "Questionnaire",
          "valueReference": {
            "reference": "Questionnaire/CRFIntervalQuestionnaire"
          }
        }, {
          "url": "Deadline",
          "valueDate": "2021-12-01"
        }, {
          "url": "ReminderFrequency",
          "valueTiming": {
            "repeat": {
              "frequency": 1,
              "period": 1,
              "periodUnit": "wk"
            }
          }
        } ]
      }, {
        "url": "http://interopehrate.eu/fhir/StructureDefinition/DataSetDefinitionExtension-IEHR",
        "extension": [ {
          "url": "DataRequirement",
          "valueDataRequirement": {
            "extension": [ {
              "url": "http://interopehrate.eu/fhir/StructureDefinition/FrequencyExtension-IEHR",
              "valueTiming": {
                "repeat": {
                  "frequency": 1,
                  "period": 1,
                  "periodUnit": "d"
                }
              }
            } ],
            "type": "Observation",
            "codeFilter": [ {
              "path": "code",
              "code": [ {
                "system": "http://loinc.org",
                "code": "8867-4",
                "display": "Heart rate"
              } ]
            } ],
            "dateFilter": [ {
              "path": "effectivePeriod",
              "valuePeriod": {
                "start": "2022-05-10T10:28:31+02:00",
                "end": "2024-05-10T10:28:31+02:00"
              }
            } ]
          }
        }, {
          "url": "DataRequirement",
          "valueDataRequirement": {
            "type": "Observation",
            "codeFilter": [ {
              "path": "code",
              "code": [ {
                "system": "http://loinc.org",
                "code": "8867-4",
                "display": "Heart rate"
              } ]
            } ],
            "dateFilter": [ {
              "path": "effectivePeriod",
              "valuePeriod": {
                "start": "2017-05-10T10:28:31+02:00",
                "end": "2022-05-10T10:28:31+02:00"
              }
            } ]
          }
        }, {
          "url": "DataRequirement",
          "valueDataRequirement": {
            "extension": [ {
              "url": "http://interopehrate.eu/fhir/StructureDefinition/FrequencyExtension-IEHR",
              "valueTiming": {
                "repeat": {
                  "frequency": 1,
                  "period": 3,
                  "periodUnit": "mo"
                }
              }
            } ],
            "type": "Observation",
            "codeFilter": [ {
              "path": "code",
              "code": [ {
                "system": "http://loinc.org",
                "code": "88020-3",
                "display": "Functional capacity NYHA"
              } ]
            } ],
            "dateFilter": [ {
              "path": "effectivePeriod",
              "valuePeriod": {
                "start": "2022-05-10T10:28:31+02:00",
                "end": "2024-05-10T10:28:31+02:00"
              }
            } ]
          }
        }, {
          "url": "DataRequirement",
          "valueDataRequirement": {
            "type": "Observation",
            "codeFilter": [ {
              "path": "code",
              "code": [ {
                "system": "http://loinc.org",
                "code": "88020-3",
                "display": "Functional capacity NYHA"
              } ]
            } ],
            "dateFilter": [ {
              "path": "effectivePeriod",
              "valuePeriod": {
                "start": "2017-05-10T10:28:31+02:00",
                "end": "2022-05-10T10:28:31+02:00"
              }
            } ]
          }
        }, {
          "url": "DataRequirement",
          "valueDataRequirement": {
            "extension": [ {
              "url": "http://interopehrate.eu/fhir/StructureDefinition/FrequencyExtension-IEHR",
              "valueTiming": {
                "repeat": {
                  "frequency": 1,
                  "period": 1,
                  "periodUnit": "d"
                }
              }
            } ],
            "type": "Observation",
            "codeFilter": [ {
              "path": "code",
              "code": [ {
                "system": "http://loinc.org",
                "code": "8480-6",
                "display": "Systolic blood pressure"
              } ]
            } ],
            "dateFilter": [ {
              "path": "effectivePeriod",
              "valuePeriod": {
                "start": "2022-05-10T10:28:31+02:00",
                "end": "2024-05-10T10:28:31+02:00"
              }
            } ]
          }
        }, {
          "url": "DataRequirement",
          "valueDataRequirement": {
            "extension": [ {
              "url": "http://interopehrate.eu/fhir/StructureDefinition/FrequencyExtension-IEHR",
              "valueTiming": {
                "repeat": {
                  "frequency": 1,
                  "period": 1,
                  "periodUnit": "d"
                }
              }
            } ],
            "type": "Observation",
            "codeFilter": [ {
              "path": "code",
              "code": [ {
                "system": "http://loinc.org",
                "code": "8462-4",
                "display": "Diastolic blood pressure"
              } ]
            } ],
            "dateFilter": [ {
              "path": "effectivePeriod",
              "valuePeriod": {
                "start": "2022-05-10T10:28:31+02:00",
                "end": "2024-05-10T10:28:31+02:00"
              }
            } ]
          }
        }, {
          "url": "DataRequirement",
          "valueDataRequirement": {
            "type": "Observation",
            "codeFilter": [ {
              "path": "code",
              "code": [ {
                "system": "http://loinc.org",
                "code": "8480-6",
                "display": "Systolic blood pressure"
              } ]
            } ],
            "dateFilter": [ {
              "path": "effectivePeriod",
              "valuePeriod": {
                "start": "2017-05-10T10:28:31+02:00",
                "end": "2022-05-10T10:28:31+02:00"
              }
            } ]
          }
        }, {
          "url": "DataRequirement",
          "valueDataRequirement": {
            "type": "Observation",
            "codeFilter": [ {
              "path": "code",
              "code": [ {
                "system": "http://loinc.org",
                "code": "8462-4",
                "display": "Diastolic blood pressure"
              } ]
            } ],
            "dateFilter": [ {
              "path": "effectivePeriod",
              "valuePeriod": {
                "start": "2017-05-10T10:28:31+02:00",
                "end": "2022-05-10T10:28:31+02:00"
              }
            } ]
          }
        }, {
          "url": "DataRequirement",
          "valueDataRequirement": {
            "extension": [ {
              "url": "http://interopehrate.eu/fhir/StructureDefinition/FrequencyExtension-IEHR",
              "valueTiming": {
                "repeat": {
                  "frequency": 1,
                  "period": 1,
                  "periodUnit": "d"
                }
              }
            } ],
            "type": "Observation",
            "codeFilter": [ {
              "path": "code",
              "code": [ {
                "system": "http://loinc.org",
                "code": "2708-6",
                "display": "Oxygen saturation in Arterial blood"
              } ]
            } ],
            "dateFilter": [ {
              "path": "effectivePeriod",
              "valuePeriod": {
                "start": "2022-05-10T10:28:31+02:00",
                "end": "2024-05-10T10:28:31+02:00"
              }
            } ]
          }
        }, {
          "url": "DataRequirement",
          "valueDataRequirement": {
            "type": "Observation",
            "codeFilter": [ {
              "path": "code",
              "code": [ {
                "system": "http://loinc.org",
                "code": "2708-6",
                "display": "Oxygen saturation in Arterial blood"
              } ]
            } ],
            "dateFilter": [ {
              "path": "effectivePeriod",
              "valuePeriod": {
                "start": "2022-05-10T10:28:31+02:00",
                "end": "2024-05-10T10:28:31+02:00"
              }
            } ]
          }
        }, {
          "url": "DataRequirement",
          "valueDataRequirement": {
            "extension": [ {
              "url": "http://interopehrate.eu/fhir/StructureDefinition/FrequencyExtension-IEHR",
              "valueTiming": {
                "repeat": {
                  "frequency": 1,
                  "period": 1,
                  "periodUnit": "d"
                }
              }
            } ],
            "type": "Observation",
            "codeFilter": [ {
              "path": "code",
              "code": [ {
                "system": "http://loinc.org",
                "code": "29463-7",
                "display": "Body weight"
              } ]
            } ],
            "dateFilter": [ {
              "path": "effectivePeriod",
              "valuePeriod": {
                "start": "2022-05-10T10:28:31+02:00",
                "end": "2024-05-10T10:28:31+02:00"
              }
            } ]
          }
        }, {
          "url": "DataRequirement",
          "valueDataRequirement": {
            "type": "Observation",
            "codeFilter": [ {
              "path": "code",
              "code": [ {
                "system": "http://loinc.org",
                "code": "29463-7",
                "display": "Body weight"
              } ]
            } ],
            "dateFilter": [ {
              "path": "effectivePeriod",
              "valuePeriod": {
                "start": "2017-05-10T10:28:31+02:00",
                "end": "2022-05-10T10:28:31+02:00"
              }
            } ]
          }
        }, {
          "url": "DataRequirement",
          "valueDataRequirement": {
            "type": "Medication",
            "dateFilter": [ {
              "path": "effectivePeriod",
              "valuePeriod": {
                "start": "2022-05-10T10:28:31+02:00",
                "end": "2024-05-10T10:28:31+02:00"
              }
            } ]
          }
        }, {
          "url": "DataRequirement",
          "valueDataRequirement": {
            "type": "Medication",
            "dateFilter": [ {
              "path": "effectivePeriod",
              "valuePeriod": {
                "start": "2017-05-10T10:28:31+02:00",
                "end": "2022-05-10T10:28:31+02:00"
              }
            } ]
          }
        }, {
          "url": "DataRequirement",
          "valueDataRequirement": {
            "extension": [ {
              "url": "http://interopehrate.eu/fhir/StructureDefinition/FrequencyExtension-IEHR",
              "valueTiming": {
                "repeat": {
                  "frequency": 1,
                  "period": 6,
                  "periodUnit": "mo"
                }
              }
            } ],
            "type": "Observation",
            "codeFilter": [ {
              "path": "code",
              "code": [ {
                "system": "http://loinc.org",
                "code": "10230-1",
                "display": "Left ventricular Ejection fraction"
              } ]
            } ],
            "dateFilter": [ {
              "path": "effectivePeriod",
              "valuePeriod": {
                "start": "2022-05-10T10:28:31+02:00",
                "end": "2024-05-10T10:28:31+02:00"
              }
            } ]
          }
        }, {
          "url": "DataRequirement",
          "valueDataRequirement": {
            "extension": [ {
              "url": "http://interopehrate.eu/fhir/StructureDefinition/FrequencyExtension-IEHR",
              "valueTiming": {
                "repeat": {
                  "frequency": 1,
                  "period": 6,
                  "periodUnit": "mo"
                }
              }
            } ],
            "type": "Observation",
            "codeFilter": [ {
              "path": "code",
              "code": [ {
                "system": "http://loinc.org",
                "code": "10231-9",
                "display": "Right ventricular Ejection fraction"
              } ]
            } ],
            "dateFilter": [ {
              "path": "effectivePeriod",
              "valuePeriod": {
                "start": "2022-05-10T10:28:31+02:00",
                "end": "2024-05-10T10:28:31+02:00"
              }
            } ]
          }
        }, {
          "url": "DataRequirement",
          "valueDataRequirement": {
            "type": "Observation",
            "codeFilter": [ {
              "path": "code",
              "code": [ {
                "system": "http://loinc.org",
                "code": "10230-1",
                "display": "Left ventricular Ejection fraction"
              } ]
            } ],
            "dateFilter": [ {
              "path": "effectivePeriod",
              "valuePeriod": {
                "start": "2017-05-10T10:28:31+02:00",
                "end": "2022-05-10T10:28:31+02:00"
              }
            } ]
          }
        }, {
          "url": "DataRequirement",
          "valueDataRequirement": {
            "type": "Observation",
            "codeFilter": [ {
              "path": "code",
              "code": [ {
                "system": "http://loinc.org",
                "code": "10231-9",
                "display": "Right ventricular Ejection fraction"
              } ]
            } ],
            "dateFilter": [ {
              "path": "effectivePeriod",
              "valuePeriod": {
                "start": "2017-05-10T10:28:31+02:00",
                "end": "2022-05-10T10:28:31+02:00"
              }
            } ]
          }
        }, {
          "url": "DataRequirement",
          "valueDataRequirement": {
            "extension": [ {
              "url": "http://interopehrate.eu/fhir/StructureDefinition/FrequencyExtension-IEHR",
              "valueTiming": {
                "repeat": {
                  "frequency": 1,
                  "period": 12,
                  "periodUnit": "mo"
                }
              }
            } ],
            "type": "Observation",
            "codeFilter": [ {
              "path": "code",
              "code": [ {
                "system": "http://loinc.org",
                "code": "20150-9",
                "display": "FEV1"
              } ]
            } ],
            "dateFilter": [ {
              "path": "effectivePeriod",
              "valuePeriod": {
                "start": "2022-05-10T10:28:31+02:00",
                "end": "2024-05-10T10:28:31+02:00"
              }
            } ]
          }
        }, {
          "url": "DataRequirement",
          "valueDataRequirement": {
            "type": "Observation",
            "codeFilter": [ {
              "path": "code",
              "code": [ {
                "system": "http://loinc.org",
                "code": "20150-9",
                "display": "FEV1"
              } ]
            } ],
            "dateFilter": [ {
              "path": "effectivePeriod",
              "valuePeriod": {
                "start": "2017-05-10T10:28:31+02:00",
                "end": "2022-05-10T10:28:31+02:00"
              }
            } ]
          }
        }, {
          "url": "DataRequirement",
          "valueDataRequirement": {
            "extension": [ {
              "url": "http://interopehrate.eu/fhir/StructureDefinition/FrequencyExtension-IEHR",
              "valueTiming": {
                "repeat": {
                  "frequency": 1,
                  "period": 6,
                  "periodUnit": "mo"
                }
              }
            } ],
            "type": "Observation",
            "codeFilter": [ {
              "path": "code",
              "code": [ {
                "system": "http://loinc.org",
                "code": "718-7",
                "display": "Hemoglobin [Mass/volume] in Blood"
              } ]
            } ],
            "dateFilter": [ {
              "path": "effectivePeriod",
              "valuePeriod": {
                "start": "2022-05-10T10:28:31+02:00",
                "end": "2024-05-10T10:28:31+02:00"
              }
            } ]
          }
        }, {
          "url": "DataRequirement",
          "valueDataRequirement": {
            "type": "Observation",
            "codeFilter": [ {
              "path": "code",
              "code": [ {
                "system": "http://loinc.org",
                "code": "718-7",
                "display": "Hemoglobin [Mass/volume] in Blood"
              } ]
            } ],
            "dateFilter": [ {
              "path": "effectivePeriod",
              "valuePeriod": {
                "start": "2017-05-10T10:28:31+02:00",
                "end": "2022-05-10T10:28:31+02:00"
              }
            } ]
          }
        }, {
          "url": "DataRequirement",
          "valueDataRequirement": {
            "extension": [ {
              "url": "http://interopehrate.eu/fhir/StructureDefinition/FrequencyExtension-IEHR",
              "valueTiming": {
                "repeat": {
                  "frequency": 1,
                  "period": 6,
                  "periodUnit": "mo"
                }
              }
            } ],
            "type": "Observation",
            "codeFilter": [ {
              "path": "code",
              "code": [ {
                "system": "http://loinc.org",
                "code": "42637-9",
                "display": "Natriuretic peptide B [Mass/volume] in Blood"
              } ]
            } ],
            "dateFilter": [ {
              "path": "effectivePeriod",
              "valuePeriod": {
                "start": "2022-05-10T10:28:31+02:00",
                "end": "2024-05-10T10:28:31+02:00"
              }
            } ]
          }
        }, {
          "url": "DataRequirement",
          "valueDataRequirement": {
            "type": "Observation",
            "codeFilter": [ {
              "path": "code",
              "code": [ {
                "system": "http://loinc.org",
                "code": "42637-9",
                "display": "Natriuretic peptide B [Mass/volume] in Blood"
              } ]
            } ],
            "dateFilter": [ {
              "path": "effectivePeriod",
              "valuePeriod": {
                "start": "2017-05-10T10:28:31+02:00",
                "end": "2022-05-10T10:28:31+02:00"
              }
            } ]
          }
        }, {
          "url": "DataRequirement",
          "valueDataRequirement": {
            "extension": [ {
              "url": "http://interopehrate.eu/fhir/StructureDefinition/FrequencyExtension-IEHR",
              "valueTiming": {
                "repeat": {
                  "frequency": 1,
                  "period": 6,
                  "periodUnit": "mo"
                }
              }
            } ],
            "type": "Observation",
            "codeFilter": [ {
              "path": "code",
              "code": [ {
                "system": "http://loinc.org",
                "code": "71425-3",
                "display": "Natriuretic peptide.B prohormone N-Terminal [Mass/volume] in Blood by Immunoassay"
              } ]
            } ],
            "dateFilter": [ {
              "path": "effectivePeriod",
              "valuePeriod": {
                "start": "2022-05-10T10:28:31+02:00",
                "end": "2024-05-10T10:28:31+02:00"
              }
            } ]
          }
        }, {
          "url": "DataRequirement",
          "valueDataRequirement": {
            "type": "Observation",
            "codeFilter": [ {
              "path": "code",
              "code": [ {
                "system": "http://loinc.org",
                "code": "71425-3",
                "display": "Natriuretic peptide.B prohormone N-Terminal [Mass/volume] in Blood by Immunoassay"
              } ]
            } ],
            "dateFilter": [ {
              "path": "effectivePeriod",
              "valuePeriod": {
                "start": "2017-05-10T10:28:31+02:00",
                "end": "2022-05-10T10:28:31+02:00"
              }
            } ]
          }
        }, {
          "url": "DataRequirement",
          "valueDataRequirement": {
            "extension": [ {
              "url": "http://interopehrate.eu/fhir/StructureDefinition/FrequencyExtension-IEHR",
              "valueTiming": {
                "repeat": {
                  "frequency": 1,
                  "period": 6,
                  "periodUnit": "mo"
                }
              }
            } ],
            "type": "Observation",
            "codeFilter": [ {
              "path": "category",
              "code": [ {
                "system": "http://loinc.org",
                "code": "71941-9",
                "display": "Kansas City Cardiomyopathy Questionnaire [KCCQ]"
              } ]
            } ],
            "dateFilter": [ {
              "path": "effectivePeriod",
              "valuePeriod": {
                "start": "2022-05-10T10:28:31+02:00",
                "end": "2024-05-10T10:28:31+02:00"
              }
            } ]
          }
        } ]
      } ],
      "identifier": [ {
        "system": "urn:oid:1.11.111.1.1.11.111.11",
        "value": "ResearchStudy/578354"
      } ],
      "title": "ResearchStudyIEHR Example",
      "status": "active",
      "primaryPurposeType": {
        "coding": [ {
          "system": "http://terminology.hl7.org/CodeSystem/research-study-prim-purp-type",
          "code": "diagnostic",
          "display": "Diagnostic"
        } ]
      },
      "contact": [ {
        "name": "Mr Alberto Milano",
        "telecom": [ {
          "system": "phone",
          "value": "11111111"
        } ]
      } ],
      "location": [ {
        "coding": [ {
          "system": "urn:iso:std:iso:3166",
          "code": "IT",
          "display": "Italy"
        } ]
      } ],
      "description": "This ResearchStudy was created to contain all requirements specified in the 'FTGM - iEHR Examples of clinical research protocol' Document ",
      "enrollment": [ {
        "reference": "Group/76533"
      } ],
      "period": {
        "start": "2020-07-09",
        "end": "2025-09-14"
      },
      "site": [ {
        "reference": "Location/5982"
      } ]
    }
  }, {
    "fullUrl": "http://interopEHRate.eu/fhir-resource/Group/76533",
    "resource": {
      "resourceType": "Group",
      "id": "76533",
      "meta": {
        "profile": [ "http://interopehrate.eu/fhir/StructureDefinition/Group-Cohort-IEHR" ]
      },
      "type": "person",
      "actual": false,
      "characteristic": [ {
        "code": {
          "coding": [ {
            "system": "http://loinc.org",
            "code": "72143-1",
            "display": "Sex [HL7.v3]"
          } ]
        },
        "valueCodeableConcept": {
          "coding": [ {
            "system": "http://hl7.org/fhir/administrative-gender",
            "code": "female",
            "display": "Female"
          } ]
        },
        "exclude": false
      }, {
        "code": {
          "coding": [ {
            "system": "http://loinc.org",
            "code": "30525-0",
            "display": "Age"
          } ]
        },
        "valueRange": {
          "low": {
            "value": 60,
            "unit": "years",
            "system": "http://unitsofmeasure.org",
            "code": "a"
          }
        },
        "exclude": false
      }, {
        "code": {
          "coding": [ {
            "system": "http://loinc.org",
            "code": "75323-6",
            "display": "Condition"
          } ]
        },
        "valueCodeableConcept": {
          "coding": [ {
            "system": "http://snomed.info/sct",
            "code": "42343007",
            "display": "Congestive heart failure (disorder)"
          } ]
        },
        "exclude": false
      }, {
        "code": {
          "coding": [ {
            "system": "http://loinc.org",
            "code": "75323-6",
            "display": "Condition"
          } ]
        },
        "valueCodeableConcept": {
          "coding": [ {
            "system": "http://hl7.org/fhir/sid/icd-10-cm",
            "code": "I10",
            "display": "Essential (primary) hypertension"
          } ]
        },
        "exclude": false
      }, {
        "code": {
          "coding": [ {
            "system": "http://interopehrate.eu/fhir/CodeSystem/GroupCharacteristic-Code",
            "code": "expected lifespan",
            "display": "Expected lifespan"
          } ]
        },
        "valueRange": {
          "low": {
            "value": 5,
            "unit": "years",
            "system": "http://unitsofmeasure.org",
            "code": "a"
          }
        },
        "exclude": false
      }, {
        "code": {
          "coding": [ {
            "system": "http://loinc.org",
            "code": "52471-0",
            "display": "Medications"
          } ]
        },
        "valueCodeableConcept": {
          "coding": [ {
            "system": "http://snomed.info/sct",
            "code": "41549009",
            "display": "Angiotensin-converting enzyme inhibitor-containing product"
          } ]
        },
        "exclude": false
      }, {
        "code": {
          "coding": [ {
            "system": "http://interopehrate.eu/fhir/CodeSystem/GroupCharacteristic-Code",
            "code": "consent",
            "display": "Consent"
          } ]
        },
        "valueBoolean": true,
        "exclude": false
      }, {
        "code": {
          "coding": [ {
            "system": "http://interopehrate.eu/fhir/CodeSystem/GroupCharacteristic-Code",
            "code": "test",
            "display": "Test"
          } ]
        },
        "valueBoolean": true,
        "exclude": false
      }, {
        "code": {
          "coding": [ {
            "system": "http://interopehrate.eu/fhir/CodeSystem/GroupCharacteristic-Code",
            "code": "procedure",
            "display": "Procedure"
          } ]
        },
        "valueCodeableConcept": {
          "coding": [ {
            "system": "http://snomed.info/sct",
            "code": "32413006",
            "display": "Transplantation of heart (procedure)"
          } ]
        },
        "exclude": true
      }, {
        "code": {
          "coding": [ {
            "system": "http://interopehrate.eu/fhir/CodeSystem/GroupCharacteristic-Code",
            "code": "observation",
            "display": "Observation"
          } ]
        },
        "valueCodeableConcept": {
          "coding": [ {
            "system": "http://snomed.info/sct",
            "code": "419620001",
            "display": "Death (event)"
          } ]
        },
        "exclude": true
      } ]
    }
  }, {
    "fullUrl": "http://interopEHRate.eu/fhir-resource/Location/5982",
    "resource": {
      "resourceType": "Location",
      "id": "5982",
      "meta": {
        "profile": [ "http://interopehrate.eu/fhir/StructureDefinition/Location-ReferenceResearchCenter-IEHR" ]
      },
      "identifier": [ {
        "system": "urn:oid:1.11.111.1.1.11.111.11",
        "value": "exampleLocation"
      } ],
      "name": "Cardiovascular practice Milano",
      "type": [ {
        "coding": [ {
          "system": "http://terminology.hl7.org/CodeSystem/v3-RoleCode",
          "code": "CVDX",
          "display": "Cardiovascular diagnostics or therapeutics unit"
        } ]
      } ],
      "telecom": [ {
        "system": "phone",
        "value": "11111111"
      } ],
      "address": {
        "type": "postal",
        "line": [ "Viale Certosa, 27111111" ],
        "city": "Milano",
        "postalCode": "20019",
        "country": "Italy"
      },
      "endpoint": [ {
        "reference": "Endpoint/exampleEndpoint"
      } ]
    }
  }, {
    "fullUrl": "http://interopEHRate.eu/fhir-resource/Endpoint/exampleEndpoint",
    "resource": {
      "resourceType": "Endpoint",
      "id": "exampleEndpoint",
      "status": "off",
      "connectionType": {
        "system": "http://terminology.hl7.org/CodeSystem/endpoint-connection-type",
        "code": "hl7-fhir-rest",
        "display": "HL7 FHIR"
      },
      "payloadType": [ {
        "coding": [ {
          "system": "http://terminology.hl7.org/CodeSystem/endpoint-payload-type",
          "code": "any",
          "display": "Any"
        } ]
      } ],
      "address": "http://interopEHRate.eu/fhir-resource/"
    }
  } ]
}