{
  "resourceType": "Bundle",
  "id": "3208576423",
  "language": "en",
  "type": "collection",
  "timestamp": "2021-03-17T10:46:00.987+01:00",
  "entry": [ {
    "fullUrl": "http://rddexampleurl/fhir/ResearchStudy/320843325731",
    "resource": {
      "resourceType": "ResearchStudy",
      "id": "320843325731",
      "meta": {
        "profile": [ "http://interopehrate.eu/fhir/StructureDefinition/ResearchStudy-IEHR" ]
      },
      "language": "en",
      "text": {
        "status": "extensions",
        "div": "<div xmlns=\"http://www.w3.org/1999/xhtml\">Body temperature of elderly people in different environments and seasons</div>"
      },
      "extension": [ {
        "url": "http://interopehrate.eu/fhir/StructureDefinition/EnrollmentPeriodExtension-IEHR",
        "valuePeriod": {
          "start": "2020-01-01",
          "end": "2020-07-01"
        }
      }, {
        "url": "http://interopehrate.eu/fhir/StructureDefinition/AnonymizationExtension-IEHR",
        "valueCoding": {
          "system": "http://interopehrate.eu/fhir/CodeSystem/AnonymizationType-IEHR",
          "code": "pseudonymization",
          "display": "Pseudonymization"
        }
      }, {
        "url": "http://interopehrate.eu/fhir/StructureDefinition/DataSetDefinitionExtension-IEHR",
        "extension": [ {
          "url": "DataRequirement",
          "valueDataRequirement": {
            "extension": [ {
              "url": "http://interopehrate.eu/fhir/StructureDefinition/FrequencyExtension-IEHR",
              "valueTiming": {
                "repeat": {
                  "frequency": 1,
                  "period": 1,
                  "periodUnit": "wk"
                }
              }
            } ],
            "type": "Observation",
            "codeFilter": [ {
              "path": "code",
              "code": [ {
                "system": "http://loinc.org",
                "code": "8310-5",
                "display": "Body temperature"
              } ]
            } ],
            "dateFilter": [ {
              "path": "effectivePeriod",
              "valuePeriod": {
                "start": "2020-01-01",
                "end": "2020-12-31"
              }
            } ]
          }
        }, {
          "url": "DataRequirement",
          "valueDataRequirement": {
            "extension": [ {
              "url": "http://interopehrate.eu/fhir/StructureDefinition/FrequencyExtension-IEHR",
              "valueTiming": {
                "repeat": {
                  "frequency": 1,
                  "period": 1,
                  "periodUnit": "wk"
                }
              }
            } ],
            "type": "Observation",
            "codeFilter": [ {
              "path": "code",
              "code": [ {
                "system": "http://loinc.org",
                "code": "8310-5",
                "display": "Body temperature"
              } ]
            } ],
            "dateFilter": [ {
              "path": "effectivePeriod",
              "valuePeriod": {
                "start": "2015-01-01",
                "end": "2020-01-01"
              }
            } ]
          }
        } ]
      } ],
      "identifier": [ {
        "system": "http://interopEHRate.eu/fhir-resource/",
        "value": "FTGM_907_20_311"
      } ],
      "title": "COVID  zero day",
      "status": "active",
      "primaryPurposeType": {
        "coding": [ {
          "system": "http://terminology.hl7.org/CodeSystem/research-study-prim-purp-type",
          "code": "screening",
          "display": "Screening"
        } ]
      },
      "contact": [ {
        "name": "Dr. Stefano Dalmiani",
        "telecom": [ {
          "system": "phone",
          "value": "+39 050 315 3711"
        } ]
      } ],
      "location": [ {
        "coding": [ {
          "system": "urn:iso:std:iso:3166",
          "code": "IT",
          "display": "Italy"
        } ]
      } ],
      "description": "Body temperature of people in different environments and seasons",
      "enrollment": [ {
        "reference": "Group/32085497"
      } ],
      "period": {
        "start": "2020-01-01",
        "end": "2020-12-31"
      },
      "site": [ {
        "reference": "Location/320993"
      } ]
    }
  }, {
    "fullUrl": "http://rddexampleurl/fhir/Group/32085497",
    "resource": {
      "resourceType": "Group",
      "id": "32085497",
      "meta": {
        "profile": [ "http://interopehrate.eu/fhir/StructureDefinition/Group-Cohort-IEHR" ]
      },
      "type": "person",
      "actual": false,
      "characteristic": [ {
        "code": {
          "coding": [ {
            "system": "http://loinc.org",
            "code": "30525-0",
            "display": "Age"
          } ]
        },
        "valueRange": {
          "low": {
            "value": 99,
            "unit": "years",
            "system": "http://unitsofmeasure.org",
            "code": "a"
          }
        },
        "exclude": false
      }, {
        "code": {
          "coding": [ {
            "system": "http://loinc.org",
            "code": "75323-6",
            "display": "Condition"
          } ]
        },
        "valueCodeableConcept": {
          "coding": [ {
            "system": "http://snomed.info/sct",
            "code": "27624003",
            "display": "Chronic disease (disorder)"
          } ]
        },
        "exclude": false
      }, {
        "code": {
          "coding": [ {
            "system": "http://interopehrate.eu/fhir/CodeSystem/GroupCharacteristic-Code",
            "code": "observation",
            "display": "Observation"
          } ]
        },
        "valueCodeableConcept": {
          "coding": [ {
            "system": "http://snomed.info/sct",
            "code": "419620001",
            "display": "Death (event)"
          } ]
        },
        "exclude": true
      }, {
        "code": {
          "coding": [ {
            "system": "http://interopehrate.eu/fhir/CodeSystem/GroupCharacteristic-Code",
            "code": "observation",
            "display": "Observation"
          } ]
        },
        "valueQuantity": {
          "value": 1,
          "unit": "years",
          "system": "http://unitsofmeasure.org",
          "code": "a"
        },
        "exclude": true
      } ]
    }
  }, {
    "fullUrl": "http://rddexampleurl/fhir/Location/320993",
    "resource": {
      "resourceType": "Location",
      "id": "320993",
      "meta": {
        "profile": [ "http://interopehrate.eu/fhir/StructureDefinition/Location-ReferenceResearchCenter-IEHR" ]
      },
      "identifier": [ {
        "system": "http://interopEHRate.eu/fhir-resource/",
        "value": "Location/FTGM01"
      } ],
      "name": "Fondazione Toscana Gabriele Monasterio",
      "type": [ {
        "coding": [ {
          "system": "http://terminology.hl7.org/CodeSystem/v3-RoleCode",
          "code": "CVDX",
          "display": "Cardiovascular diagnostics or therapeutics unit"
        } ]
      } ],
      "telecom": [ {
        "system": "phone",
        "value": "+39 050 315 3229",
        "use": "work"
      } ],
      "address": {
        "use": "work",
        "type": "postal",
        "line": [ "Via Giuseppe Moruzzi 1" ],
        "city": "Pisa",
        "country": "ITA"
      },
      "endpoint": [ {
        "reference": "Endpoint/433363"
      } ]
    }
  }, {
    "fullUrl": "http://rddexampleurl/fhir/Endpoint/433363",
    "resource": {
      "resourceType": "Endpoint",
      "id": "433363",
      "status": "off",
      "connectionType": {
        "system": "http://terminology.hl7.org/CodeSystem/endpoint-connection-type",
        "code": "hl7-fhir-rest",
        "display": "HL7 FHIR"
      },
      "payloadType": [ {
        "coding": [ {
          "system": "http://terminology.hl7.org/CodeSystem/endpoint-payload-type",
          "code": "any",
          "display": "Any"
        } ]
      } ],
      "address": "http://interopEHRate.eu/rdd/endpoint"
    }
  } ]
}