{
  "resourceType": "Bundle",
  "id": "87731142",
  "language": "en",
  "type": "collection",
  "timestamp": "2022-05-10T10:33:20.494+02:00",
  "entry": [ {
    "fullUrl": "http://interopEHRate.eu/fhir-resource/ResearchStudy/exampleResearchStudy",
    "resource": {
      "resourceType": "ResearchStudy",
      "id": "exampleResearchStudy",
      "meta": {
        "profile": [ "http://interopehrate.eu/fhir/StructureDefinition/ResearchStudy-IEHR" ]
      },
      "language": "en",
      "text": {
        "status": "extensions",
        "div": "<div xmlns=\"http://www.w3.org/1999/xhtml\">To prevent error</div>"
      },
      "extension": [ {
        "url": "http://interopehrate.eu/fhir/StructureDefinition/EnrollmentPeriodExtension-IEHR",
        "valuePeriod": {
          "start": "2020-01-01",
          "end": "2020-07-01"
        }
      }, {
        "url": "http://interopehrate.eu/fhir/StructureDefinition/AnonymizationExtension-IEHR",
        "valueCoding": {
          "system": "http://interopehrate.eu/fhir/CodeSystem/AnonymizationType-IEHR",
          "code": "anonymization",
          "display": "Anonymization"
        }
      }, {
        "url": "http://interopehrate.eu/fhir/StructureDefinition/DataSetDefinitionExtension-IEHR",
        "extension": [ {
          "url": "DataRequirement",
          "valueDataRequirement": {
            "extension": [ {
              "url": "http://interopehrate.eu/fhir/StructureDefinition/FrequencyExtension-IEHR",
              "valueTiming": {
                "repeat": {
                  "frequency": 2,
                  "period": 1,
                  "periodUnit": "mo"
                }
              }
            } ],
            "type": "Observation",
            "codeFilter": [ {
              "path": "category",
              "code": [ {
                "system": "http://loinc.org",
                "code": "8716-3",
                "display": "Vital Signs"
              } ]
            } ],
            "dateFilter": [ {
              "path": "effectivePeriod",
              "valuePeriod": {
                "start": "2015-09-14",
                "end": "2025-09-14"
              }
            } ]
          }
        }, {
          "url": "DataRequirement",
          "valueDataRequirement": {
            "extension": [ {
              "url": "http://interopehrate.eu/fhir/StructureDefinition/FrequencyExtension-IEHR",
              "valueTiming": {
                "repeat": {
                  "frequency": 2,
                  "period": 1,
                  "periodUnit": "mo"
                }
              }
            } ],
            "type": "Observation",
            "codeFilter": [ {
              "path": "code",
              "code": [ {
                "system": "http://loinc.org",
                "code": "29463-7",
                "display": "Body weight"
              } ]
            } ],
            "dateFilter": [ {
              "path": "effectivePeriod",
              "valuePeriod": {
                "start": "2015-09-14",
                "end": "2025-09-14"
              }
            } ]
          }
        }, {
          "url": "DataRequirement",
          "valueDataRequirement": {
            "type": "Medication",
            "codeFilter": [ {
              "path": "medicationCodeableConcept",
              "code": [ {
                "system": "http://snomed.info/sct",
                "code": "3142009",
                "display": "Azacyclonol"
              } ]
            } ],
            "dateFilter": [ {
              "path": "effectivePeriod",
              "valuePeriod": {
                "start": "2020-09-14",
                "end": "2025-09-14"
              }
            } ]
          }
        } ]
      } ],
      "identifier": [ {
        "system": "urn:oid:1.11.111.1.1.11.111.11",
        "value": "ResearchStudy/exampleResearchStudy"
      } ],
      "title": "ResearchStudyIHR Example",
      "status": "active",
      "primaryPurposeType": {
        "coding": [ {
          "system": "http://terminology.hl7.org/CodeSystem/research-study-prim-purp-type",
          "code": "diagnostic",
          "display": "Diagnostic"
        } ]
      },
      "contact": [ {
        "name": "Mr Alberto Milano",
        "telecom": [ {
          "system": "phone",
          "value": "11111111"
        } ]
      } ],
      "relatedArtifact": [ {
        "type": "documentation",
        "document": {
          "contentType": "application/pdf",
          "language": "en",
          "data": "",
          "title": "ResearchStudy description",
          "creation": "2021-10-25"
        }
      } ],
      "location": [ {
        "coding": [ {
          "system": "urn:iso:std:iso:3166",
          "code": "IT",
          "display": "Italy"
        } ]
      } ],
      "enrollment": [ {
        "reference": "Group/1"
      } ],
      "period": {
        "start": "2020-07-09",
        "end": "2025-09-14"
      },
      "site": [ {
        "reference": "Location/1"
      } ]
    }
  }, {
    "fullUrl": "http://interopEHRate.eu/fhir-resource/Group/1",
    "resource": {
      "resourceType": "Group",
      "id": "1",
      "meta": {
        "profile": [ "http://interopehrate.eu/fhir/StructureDefinition/Group-Cohort-IEHR" ]
      },
      "type": "person",
      "actual": false,
      "characteristic": [ {
        "code": {
          "coding": [ {
            "system": "http://loinc.org",
            "code": "72143-1",
            "display": "Sex [HL7.v3]"
          } ]
        },
        "valueCodeableConcept": {
          "coding": [ {
            "system": "http://hl7.org/fhir/administrative-gender",
            "code": "male",
            "display": "Male"
          } ]
        },
        "exclude": false
      }, {
        "code": {
          "coding": [ {
            "system": "http://loinc.org",
            "code": "30525-0",
            "display": "Age"
          } ]
        },
        "valueRange": {
          "low": {
            "value": 30
          },
          "high": {
            "value": 60
          }
        },
        "exclude": false
      }, {
        "code": {
          "coding": [ {
            "system": "http://interopehrate.eu/fhir/CodeSystem/GroupCharacteristic-Code",
            "code": "observation",
            "display": "Observation"
          } ]
        },
        "valueCodeableConcept": {
          "coding": [ {
            "system": "http://hl7.org/fhir/sid/icd-10-cm",
            "code": "I50",
            "display": "Heart failure"
          } ]
        },
        "exclude": false,
        "period": {
          "start": "2019-05-04",
          "end": "2020-05-04"
        }
      }, {
        "code": {
          "coding": [ {
            "system": "http://loinc.org",
            "code": "52471-0",
            "display": "Medications"
          } ]
        },
        "valueCodeableConcept": {
          "coding": [ {
            "system": "http://snomed.info/sct",
            "code": "2796008",
            "display": "Methanthelinium"
          } ]
        },
        "exclude": false
      } ]
    }
  }, {
    "fullUrl": "http://interopEHRate.eu/fhir-resource/Location/1",
    "resource": {
      "resourceType": "Location",
      "id": "1",
      "meta": {
        "profile": [ "http://interopehrate.eu/fhir/StructureDefinition/Location-ReferenceResearchCenter-IEHR" ]
      },
      "identifier": [ {
        "system": "urn:oid:1.11.111.1.1.11.111.11",
        "value": "exampleLocation"
      } ],
      "name": "Cardiovascular practice Milano",
      "type": [ {
        "coding": [ {
          "system": "http://terminology.hl7.org/CodeSystem/v3-RoleCode",
          "code": "CVDX",
          "display": "Cardiovascular diagnostics or therapeutics unit"
        } ]
      } ],
      "telecom": [ {
        "system": "phone",
        "value": "11111111"
      } ],
      "address": {
        "type": "postal",
        "line": [ "Viale Certosa, 27111111" ],
        "city": "Milano",
        "postalCode": "20019",
        "country": "Italy"
      },
      "endpoint": [ {
        "reference": "Endpoint/4621"
      } ]
    }
  }, {
    "fullUrl": "http://interopEHRate.eu/fhir-resource/Endpoint/4621",
    "resource": {
      "resourceType": "Endpoint",
      "id": "4621",
      "status": "off",
      "connectionType": {
        "system": "http://terminology.hl7.org/CodeSystem/endpoint-connection-type",
        "code": "hl7-fhir-rest",
        "display": "HL7 FHIR"
      },
      "payloadType": [ {
        "coding": [ {
          "system": "http://terminology.hl7.org/CodeSystem/endpoint-payload-type",
          "code": "any",
          "display": "Any"
        } ]
      } ],
      "address": "http://interopEHRate.eu/fhir-resource/"
    }
  } ]
}